{
  "QTY_TEST_SUBSTANCE_STR": {
    "resourceType": "Substance",
    "id": "f204",
    "text": {
      "status": "generated",
      "div": "<div xmlns=\"http://www.w3.org/1999/xhtml\"><p><b>Generated Narrative with Details</b></p><p><b>id</b>: f204</p><p><b>identifier</b>: 15970</p><p><b>category</b>: Chemical <span>(Details : {http://terminology.hl7.org/CodeSystem/substance-category code 'chemical' = 'Chemical', given as 'Chemical'})</span></p><p><b>code</b>: Silver nitrate 20% solution (product) <span>(Details : {SNOMED CT code '333346007' = 'Silver nitrate 20% solution', given as 'Silver nitrate 20% solution (product)'})</span></p><p><b>description</b>: Solution for silver nitrate stain</p><h3>Instances</h3><table><tr><td>-</td><td><b>Identifier</b></td><td><b>Expiry</b></td><td><b>Quantity</b></td></tr><tr><td>*</td><td>AB94687</td><td>01/01/2018</td><td>100 mL<span> (Details: UCUM code mL = 'mL')</span></td></tr></table></div>"
    },
    "identifier": [
      {
        "system": "http://acme.org/identifiers/substances",
        "value": "15970"
      }
    ],
    "category": [
      {
        "coding": [
          {
            "system": "http://terminology.hl7.org/CodeSystem/substance-category",
            "code": "chemical",
            "display": "Chemical"
          }
        ]
      }
    ],
    "code": {
      "coding": [
        {
          "system": "http://snomed.info/sct",
          "code": "333346007",
          "display": "Silver nitrate 20% solution (product)"
        }
      ]
    },
    "description": "Solution for silver nitrate stain",
    "instance": [
      {
        "identifier": {
          "system": "http://acme.org/identifiers/substances/lot",
          "value": "AB94687"
        },
        "expiry": "2018-01-01",
        "quantity": {
          "value": 100,
          "unit": "mL",
          "system": "http://unitsofmeasure.org",
          "code": "mL"
        }
      }
    ]
  },
  "QTY_TEST_INVOICE": {
    "resourceType": "Invoice",
    "id": "example",
    "text": {
      "status": "generated",
      "div": "<div xmlns=\"http://www.w3.org/1999/xhtml\">Example of Invoice</div>"
    },
    "identifier": [
      {
        "system": "http://myHospital.org/Invoices",
        "value": "654321"
      }
    ],
    "status": "issued",
    "subject": {
      "reference": "Patient/example"
    },
    "date": "2017-01-25T08:00:00+01:00",
    "participant": [
      {
        "role": {
          "coding": [
            {
              "system": "http://snomed.info/sct",
              "code": "17561000",
              "display": "Cardiologist"
            }
          ]
        },
        "actor": {
          "reference": "Practitioner/example"
        }
      }
    ],
    "issuer": {
      "identifier": {
        "system": "http://myhospital/NamingSystem/departments",
        "value": "CARD_INTERMEDIATE_CARE"
      }
    },
    "account": {
      "reference": "Account/example"
    },
    "totalNet": {
      "value": 40.22,
      "currency": "EUR"
    },
    "totalGross": {
      "value": 48,
      "currency": "EUR"
    }
  },
  "URI_TEST_QUESTIONNAIRE": {
    "resourceType": "Questionnaire",
    "id": "3141",
    "text": {
      "status": "generated",
      "div": "<div xmlns=\"http://www.w3.org/1999/xhtml\">\n      <pre>\n            1.Comorbidity?\n              1.1 Cardial Comorbidity\n                1.1.1 Angina?\n                1.1.2 MI?\n              1.2 Vascular Comorbidity?\n              ...\n            Histopathology\n              Abdominal\n                pT category?\n              ...\n          </pre>\n    </div>"
    },
    "url": "http://hl7.org/fhir/Questionnaire/3141",
    "title": "Cancer Quality Forum Questionnaire 2012",
    "status": "draft",
    "subjectType": [
      "Patient"
    ],
    "date": "2012-01",
    "item": [
      {
        "linkId": "2",
        "code": [
          {
            "system": "http://example.org/system/code/sections",
            "code": "HISTOPATHOLOGY"
          }
        ],
        "type": "group",
        "item": [
          {
            "linkId": "2.1",
            "code": [
              {
                "system": "http://example.org/system/code/sections",
                "code": "ABDOMINAL"
              }
            ],
            "type": "group",
            "item": [
              {
                "linkId": "2.1.2",
                "code": [
                  {
                    "system": "http://example.org/system/code/questions",
                    "code": "STADPT",
                    "display": "pT category"
                  }
                ],
                "type": "choice"
              }
            ]
          }
        ]
      }
    ]
  },
  "TEST_PATIENT_DATE_INDEX": {
    "resourceType": "Patient",
    "id": "f001",
    "text": {
      "status": "generated",
      "div": "<div xmlns=\"http://www.w3.org/1999/xhtml\"><p><b>Generated Narrative with Details</b></p><p><b>id</b>: f001</p><p><b>identifier</b>: 738472983 (USUAL), ?? (USUAL)</p><p><b>active</b>: true</p><p><b>name</b>: Pieter van de Heuvel </p><p><b>telecom</b>: ph: 0648352638(MOBILE), p.heuvel@gmail.com(HOME)</p><p><b>gender</b>: male</p><p><b>birthDate</b>: 17/11/1944</p><p><b>deceased</b>: false</p><p><b>address</b>: Van Egmondkade 23 Amsterdam 1024 RJ NLD (HOME)</p><p><b>maritalStatus</b>: Getrouwd <span>(Details : {http://terminology.hl7.org/CodeSystem/v3-MaritalStatus code 'M' = 'Married', given as 'Married'})</span></p><p><b>multipleBirth</b>: true</p><h3>Contacts</h3><table><tr><td>-</td><td><b>Relationship</b></td><td><b>Name</b></td><td><b>Telecom</b></td></tr><tr><td>*</td><td>Emergency Contact <span>(Details : {http://terminology.hl7.org/CodeSystem/v2-0131 code 'C' = 'Emergency Contact)</span></td><td>Sarah Abels </td><td>ph: 0690383372(MOBILE)</td></tr></table><h3>Communications</h3><table><tr><td>-</td><td><b>Language</b></td><td><b>Preferred</b></td></tr><tr><td>*</td><td>Nederlands <span>(Details : {urn:ietf:bcp:47 code 'nl' = 'Dutch', given as 'Dutch'})</span></td><td>true</td></tr></table><p><b>managingOrganization</b>: <a>Burgers University Medical Centre</a></p></div>"
    },
    "identifier": [
      {
        "use": "usual",
        "system": "urn:oid:2.16.840.1.113883.2.4.6.3",
        "value": "738472983"
      },
      {
        "use": "usual",
        "system": "urn:oid:2.16.840.1.113883.2.4.6.3"
      }
    ],
    "active": true,
    "name": [
      {
        "use": "usual",
        "family": "van de Heuvel",
        "given": [
          "Pieter"
        ],
        "suffix": [
          "MSc"
        ]
      }
    ],
    "telecom": [
      {
        "system": "phone",
        "value": "0648352638",
        "use": "mobile"
      },
      {
        "system": "email",
        "value": "p.heuvel@gmail.com",
        "use": "home"
      }
    ],
    "gender": "male",
    "birthDate": "1944-11-17",
    "deceasedBoolean": false,
    "address": [
      {
        "use": "home",
        "line": [
          "Van Egmondkade 23"
        ],
        "city": "Amsterdam",
        "postalCode": "1024 RJ",
        "country": "NLD"
      }
    ],
    "maritalStatus": {
      "coding": [
        {
          "system": "http://terminology.hl7.org/CodeSystem/v3-MaritalStatus",
          "code": "M",
          "display": "Married"
        }
      ],
      "text": "Getrouwd"
    },
    "multipleBirthBoolean": true,
    "contact": [
      {
        "relationship": [
          {
            "coding": [
              {
                "system": "http://terminology.hl7.org/CodeSystem/v2-0131",
                "code": "C"
              }
            ]
          }
        ],
        "name": {
          "use": "usual",
          "family": "Abels",
          "given": [
            "Sarah"
          ]
        },
        "telecom": [
          {
            "system": "phone",
            "value": "0690383372",
            "use": "mobile"
          }
        ]
      }
    ],
    "communication": [
      {
        "language": {
          "coding": [
            {
              "system": "urn:ietf:bcp:47",
              "code": "nl",
              "display": "Dutch"
            }
          ],
          "text": "Nederlands"
        },
        "preferred": true
      }
    ],
    "managingOrganization": {
      "reference": "Organization/f001",
      "display": "Burgers University Medical Centre"
    }
  },
  "TEST_PATIENT_LASTUPDATED_INDEX": {
    "resourceType": "Patient",
    "id": "mom",
    "meta": {
      "lastUpdated": "2012-05-29T23:45:32Z"
    },
    "text": {
      "status": "generated",
      "div": "<div xmlns=\"http://www.w3.org/1999/xhtml\"><p><b>Generated Narrative with Details</b></p><p><b>id</b>: mom</p><p><b>meta</b>: </p><p><b>identifier</b>: Social Security number = 444222222</p><p><b>active</b>: true</p><p><b>name</b>: Eve Everywoman (OFFICIAL)</p><p><b>telecom</b>: ph: 555-555-2003(WORK)</p><p><b>gender</b>: female</p><p><b>birthDate</b>: 31/05/1973</p><p><b>address</b>: 2222 Home Street (HOME)</p><p><b>managingOrganization</b>: <a>Organization/hl7</a></p><h3>Links</h3><table><tr><td>-</td><td><b>Other</b></td><td><b>Type</b></td></tr><tr><td>*</td><td><a>RelatedPerson/newborn-mom</a></td><td>seealso</td></tr></table></div>"
    },
    "identifier": [
      {
        "type": {
          "coding": [
            {
              "system": "http://terminology.hl7.org/CodeSystem/v2-0203",
              "code": "SS"
            }
          ]
        },
        "system": "http://hl7.org/fhir/sid/us-ssn",
        "value": "444222222"
      }
    ],
    "active": true,
    "name": [
      {
        "use": "official",
        "family": "Everywoman",
        "given": [
          "Eve"
        ]
      }
    ],
    "telecom": [
      {
        "system": "phone",
        "value": "555-555-2003",
        "use": "work"
      }
    ],
    "gender": "female",
    "birthDate": "1973-05-31",
    "address": [
      {
        "use": "home",
        "line": [
          "2222 Home Street"
        ]
      }
    ],
    "managingOrganization": {
      "reference": "Organization/hl7"
    },
    "link": [
      {
        "other": {
          "reference": "RelatedPerson/newborn-mom"
        },
        "type": "seealso"
      }
    ]
  },
  "TEST_CHARGE_ITEM_NUMBER_INDEX": {
    "resourceType": "ChargeItem",
    "id": "example",
    "text": {
      "status": "generated",
      "div": "<div xmlns=\"http://www.w3.org/1999/xhtml\">Example of ChargeItem Usage in Context of the German EBM Billing code system</div>"
    },
    "identifier": [
      {
        "system": "http://myHospital.org/ChargeItems",
        "value": "654321"
      }
    ],
    "definitionUri": [
      "http://www.kbv.de/tools/ebm/html/01520_2904360860826220813632.html"
    ],
    "status": "billable",
    "code": {
      "coding": [
        {
          "code": "01510",
          "display": "Zusatzpauschale für Beobachtung nach diagnostischer Koronarangiografie"
        }
      ]
    },
    "subject": {
      "reference": "Patient/example"
    },
    "context": {
      "reference": "Encounter/example"
    },
    "occurrencePeriod": {
      "start": "2017-01-25T08:00:00+01:00",
      "end": "2017-01-25T12:35:00+01:00"
    },
    "performer": [
      {
        "function": {
          "coding": [
            {
              "system": "http://snomed.info/sct",
              "code": "17561000",
              "display": "Cardiologist"
            }
          ]
        },
        "actor": {
          "reference": "Practitioner/example"
        }
      },
      {
        "function": {
          "coding": [
            {
              "system": "http://snomed.info/sct",
              "code": "224542009",
              "display": "Coronary Care Nurse"
            }
          ]
        },
        "actor": {
          "reference": "Practitioner/example"
        }
      }
    ],
    "performingOrganization": {
      "identifier": {
        "system": "http://myhospital/NamingSystem/departments",
        "value": "CARD_INTERMEDIATE_CARE"
      }
    },
    "requestingOrganization": {
      "identifier": {
        "system": "http://myhospital/NamingSystem/departments",
        "value": "CARD_U1"
      }
    },
    "quantity": {
      "value": 1
    },
    "factorOverride": 0.8,
    "priceOverride": {
      "value": 40,
      "currency": "EUR"
    },
    "overrideReason": "Patient is Cardiologist's golf buddy, so he gets a 20% discount!",
    "enterer": {
      "reference": "Practitioner/example"
    },
    "enteredDate": "2017-01-25T23:55:04+01:00",
    "reason": [
      {
        "coding": [
          {
            "system": "http://hl7.org/fhir/sid/icd-10",
            "code": "123456",
            "display": "DIAG-1"
          }
        ]
      }
    ],
    "service": [
      {
        "reference": "Procedure/example"
      }
    ],
    "account": [
      {
        "reference": "Account/example"
      }
    ],
    "note": [
      {
        "authorReference": {
          "reference": "Practitioner/example"
        },
        "time": "2017-01-25T23:55:04+01:00",
        "text": "The code is only applicable for periods longer than 4h"
      }
    ]
  },
  "TEST_MOLECULAR_SEQUENCE_NUMBER_INDEX": {
    "resourceType": "MolecularSequence",
    "id": "example",
    "text": {
      "status": "generated",
      "div": "<div xmlns=\"http://www.w3.org/1999/xhtml\"><p><b>Generated Narrative with Details</b></p><p><b>id</b>: example</p><p><b>type</b>: dna</p><p><b>coordinateSystem</b>: 0</p><p><b>patient</b>: <a>Patient/example</a></p><h3>ReferenceSeqs</h3><table><tr><td>-</td><td><b>ReferenceSeqId</b></td><td><b>Strand</b></td><td><b>WindowStart</b></td><td><b>WindowEnd</b></td></tr><tr><td>*</td><td>NC_000009.11 <span>(Details : {http://www.ncbi.nlm.nih.gov/nuccore code 'NC_000009.11' = 'NC_000009.11)</span></td><td>watson</td><td>22125500</td><td>22125510</td></tr></table><h3>Variants</h3><table><tr><td>-</td><td><b>Start</b></td><td><b>End</b></td><td><b>ObservedAllele</b></td><td><b>ReferenceAllele</b></td></tr><tr><td>*</td><td>22125503</td><td>22125504</td><td>C</td><td>G</td></tr></table><h3>Repositories</h3><table><tr><td>-</td><td><b>Type</b></td><td><b>Url</b></td><td><b>Name</b></td><td><b>VariantsetId</b></td></tr><tr><td>*</td><td>openapi</td><td><a>http://grch37.rest.ensembl.org/ga4gh/variants/3:rs1333049?content-type=application/json</a></td><td>GA4GH API</td><td>3:rs1333049</td></tr></table></div>"
    },
    "type": "dna",
    "coordinateSystem": 0,
    "patient": {
      "reference": "Patient/example"
    },
    "referenceSeq": {
      "referenceSeqId": {
        "coding": [
          {
            "system": "http://www.ncbi.nlm.nih.gov/nuccore",
            "code": "NC_000009.11"
          }
        ]
      },
      "strand": "watson",
      "windowStart": 22125500,
      "windowEnd": 22125510
    },
    "variant": [
      {
        "start": 22125503,
        "end": 22125504,
        "observedAllele": "C",
        "referenceAllele": "G"
      }
    ],
    "repository": [
      {
        "type": "openapi",
        "url": "http://grch37.rest.ensembl.org/ga4gh/variants/3:rs1333049?content-type=application/json",
        "name": "GA4GH API",
        "variantsetId": "3:rs1333049"
      }
    ]
  }
}